Black Body Radiation Experiment Wed, Sep 23, 2020 12:51 PM
Sensor Position (Degrees)	Light Intensity (Volts)
0.00000	-0.00342
0.00000	-0.00262
0.00000	-0.00342
0.00000	-0.00181
0.00000	-0.00906
0.00000	0.00125
0.00000	-0.00649
0.00000	-0.00101
0.00000	-0.00616
0.00000	-0.00520
0.00000	-0.00616
0.00000	-0.00713
0.00000	-0.00600
0.00000	-0.00584
0.00000	-0.00052
0.00000	-0.00697
0.00000	-0.00326
0.00000	-0.00359
0.00000	-0.00729
0.00000	-0.00117
0.00000	-0.00520
0.00000	-0.00326
0.00000	-0.00600
0.00000	-0.00487
0.00000	-0.00359
0.00000	-0.00423
0.00000	-0.00391
0.00000	-0.00020
0.00000	-0.00326
0.00000	-0.00165
0.00000	-0.00262
0.00000	-0.00052
0.00000	-0.00197
0.00000	-0.00729
0.00000	-0.00181
0.00000	-0.00697
0.00000	-0.00149
0.00000	-0.00681
0.00000	-0.00697
0.00000	-0.00713
0.00000	-0.00520
0.00000	-0.00665
0.00000	-0.00600
0.00000	-0.00794
0.00000	-0.00552
0.00000	-0.00761
0.00000	-0.00310
0.00000	-0.00455
0.00000	-0.00342
0.00000	-0.00745
0.00000	-0.00294
0.00000	-0.00342
0.00000	-0.00600
0.00000	-0.00310
0.00000	-0.00504
0.00000	-0.00246
0.00000	-0.00294
0.00000	-0.00616
0.00000	-0.00149
0.00000	-0.00246
0.00000	-0.00697
0.00000	-0.00455
0.00000	-0.00616
0.00000	0.00254
0.00000	-0.00197
0.00000	-0.00214
0.00000	-0.00407
0.00000	-0.00246
0.00000	-0.00165
0.00000	-0.00149
0.00000	-0.00568
0.00000	-0.00632
0.00000	-0.00552
0.00000	-0.00504
0.00000	-0.00955
0.00000	-0.00133
0.00000	-0.00552
0.00000	-0.00278
0.00000	-0.00375
0.00000	-0.00536
0.00000	-0.00520
0.00000	-0.00455
0.00000	-0.00262
0.00000	-0.00632
0.00000	-0.00262
0.00000	-0.00278
0.00000	-0.00246
0.00000	-0.00262
0.00000	-0.00230
0.00000	-0.00471
0.00000	-0.00342
0.00000	-0.00407
0.00000	-0.00359
0.00000	-0.00214
0.00000	-0.00504
0.00000	-0.00359
0.00000	-0.00455
0.00000	-0.00536
0.00000	-0.00101
0.00000	0.00286
0.00000	-0.00310
0.00000	-0.00359
0.00000	-0.00310
0.00000	-0.00004
0.00000	-0.00745
0.00000	-0.00020
0.00000	-0.00359
0.00000	-0.00439
0.00000	-0.00278
0.00000	-0.00407
0.00000	-0.00504
0.00000	-0.00246
0.00000	-0.00342
0.00000	-0.00536
0.00000	-0.00052
0.00000	0.00238
0.00000	-0.00181
0.00000	-0.00423
0.00000	-0.00326
0.00000	0.00221
0.00000	-0.00423
0.00000	-0.00391
0.00000	-0.00552
0.00000	-0.00052
0.00000	-0.00439
0.00000	-0.00632
0.00000	-0.00504
0.00000	-0.00149
0.00000	-0.00407
0.00000	-0.00423
0.00000	-0.00214
0.00000	-0.00294
0.00000	-0.00423
0.00000	-0.00020
0.00000	-0.00471
0.00000	-0.00342
0.00000	-0.00359
0.00000	-0.00310
0.00000	-0.00375
0.00000	-0.00326
0.00000	-0.00649
0.00000	0.00254
0.00000	0.00076
0.00000	-0.00181
0.00000	-0.00359
0.00000	-0.00197
0.00000	-0.00101
0.00000	-0.00471
0.00000	-0.00616
0.00000	-0.00375
0.01035	-0.00214
0.01035	-0.00600
0.01035	-0.00246
0.01035	-0.00487
0.01035	0.00060
0.01035	-0.00439
0.01035	-0.00294
0.01035	-0.00149
0.02070	0.00093
0.02070	0.00044
0.02070	-0.00536
0.02070	-0.00520
0.02070	-0.00326
0.02070	-0.00101
0.02070	-0.00117
0.02070	-0.00552
0.02070	-0.00794
0.02070	-0.00101
0.02070	-0.00487
0.02070	-0.00520
0.02070	-0.00294
0.02070	-0.00230
0.02070	-0.00069
0.02070	-0.00584
0.02070	-0.00632
0.02070	-0.00052
0.02070	-0.00230
0.02070	-0.00584
0.02070	-0.00407
0.02070	-0.00342
0.02070	0.00125
0.02070	-0.00278
0.02070	-0.00069
0.02070	-0.00375
0.02070	-0.00439
0.02070	-0.00342
0.02070	0.00044
0.02070	0.00012
0.02070	-0.00181
0.02070	-0.00052
0.02070	-0.00600
0.02070	-0.00471
0.02070	-0.00342
0.02070	-0.00471
0.02070	-0.00230
0.02070	0.00205
0.02070	-0.00326
0.02070	-0.00230
0.02070	-0.00149
0.02070	-0.00294
0.02070	-0.00326
0.02070	-0.00197
0.02070	0.00044
0.02070	-0.00181
0.02070	-0.00616
0.02070	-0.00069
0.02070	0.00044
0.02070	0.00221
0.02070	0.00044
0.02070	-0.00085
0.02070	0.00093
0.02070	-0.00729
0.02070	-0.00681
0.02070	-0.00665
0.02070	-0.00214
0.02070	-0.00036
0.02070	-0.00536
0.02070	-0.00069
0.02070	-0.00294
0.02070	-0.00278
0.02070	-0.00036
0.02070	-0.00342
0.02070	-0.00520
0.02070	-0.00713
0.02070	-0.00294
0.02070	-0.00326
0.02070	-0.00165
0.02070	-0.00359
0.02070	-0.00149
0.02070	0.00044
0.02070	-0.00020
0.02070	-0.00326
0.02070	-0.00568
0.02070	-0.00342
0.02070	-0.00713
0.03104	-0.00455
0.04139	-0.00326
0.05174	-0.00101
0.07244	0.00012
0.10348	-0.00471
0.12418	-0.00649
0.15522	0.00028
0.17592	-0.00375
0.20696	-0.00745
0.22766	-0.00020
0.26905	-0.00149
0.30010	-0.00359
0.34149	-0.00520
0.37254	-0.00504
0.41393	-0.00181
0.45532	-0.00149
0.50706	-0.00391
0.54845	-0.00230
0.60020	-0.00004
0.65194	-0.00230
0.70368	-0.00326
0.75542	-0.00294
0.79681	-0.00504
0.83820	-0.00520
0.88994	-0.00262
0.93134	-0.00197
0.97273	-0.00375
1.01412	-0.00117
1.06586	-0.00246
1.11761	-0.00504
1.17969	-0.00745
1.25213	-0.00085
1.31422	-0.00375
1.37631	-0.00359
1.44875	-0.00278
1.52118	-0.00391
1.57293	-0.00069
1.63501	-0.00294
1.68676	-0.00794
1.74885	-0.00246
1.79024	-0.00326
1.85233	-0.00649
1.90407	-0.00246
1.95581	-0.00777
2.00755	-0.00085
2.05929	-0.00487
2.11103	-0.00342
2.17312	-0.00616
2.22486	-0.00278
2.27660	-0.00342
2.34904	-0.00520
2.42148	-0.00874
2.49392	0.00044
2.55600	-0.00439
2.61809	-0.00600
2.69053	-0.00294
2.76297	-0.00906
2.82506	-0.00842
2.88715	-0.00117
2.94924	-0.00359
3.02167	-0.00423
3.08376	-0.00632
3.15620	-0.00020
3.23899	-0.00649
3.33212	-0.00278
3.40456	-0.00375
3.47699	-0.00278
3.54943	-0.00391
3.63222	-0.00230
3.72535	0.00060
3.79779	-0.00342
3.85988	-0.00552
3.93231	-0.00181
4.00475	-0.00407
4.07719	-0.00214
4.14963	-0.00036
4.23241	-0.00294
4.30485	0.00028
4.37729	-0.00278
4.43938	0.00173
4.50147	-0.00262
4.56355	-0.00085
4.62564	-0.00230
4.69808	-0.00214
4.77052	-0.00375
4.84296	-0.00616
4.90504	-0.00375
4.96713	-0.00085
5.02922	-0.00085
5.08096	-0.00342
5.13271	-0.00149
5.19479	-0.00052
5.26723	0.00157
5.33967	-0.00069
5.40176	0.00189
5.47420	-0.00101
5.54663	-0.00326
5.61907	-0.00149
5.69151	0.00254
5.75360	-0.00149
5.82603	-0.00149
5.88812	0.00060
5.95021	-0.00391
6.01230	0.00028
6.07439	-0.00052
6.13648	0.00093
6.19857	-0.00294
6.26066	-0.00052
6.32275	-0.00278
6.39519	0.00254
6.46762	-0.00375
6.54006	-0.00149
6.62285	0.00060
6.69528	0.00060
6.76772	0.00028
6.82981	0.00189
6.89190	-0.00520
6.96434	-0.00004
7.02643	-0.00133
7.07817	0.00076
7.12991	-0.00214
7.20234	0.00060
7.26443	-0.00181
7.32652	-0.00085
7.39896	-0.00020
7.47140	-0.00085
7.53349	0.00012
7.60592	0.00093
7.66801	0.00076
7.73010	-0.00407
7.79219	0.00028
7.85428	0.00125
7.92672	-0.00471
7.99916	0.00399
8.07159	-0.00085
8.16473	-0.00133
8.21647	0.00141
8.27856	-0.00036
8.33030	-0.00214
8.39239	0.00189
8.45448	0.00383
8.51657	-0.00020
8.57865	-0.00471
8.64074	0.00189
8.70283	0.00157
8.75457	-0.00020
8.80631	0.00141
8.85806	-0.00036
8.92015	-0.00085
8.97189	0.00238
9.03398	-0.00246
9.08572	0.00254
9.14781	-0.00262
9.19955	-0.00117
9.26164	-0.00230
9.31338	0.00221
9.37547	0.00511
9.43755	-0.00117
9.52034	-0.00069
9.58243	0.00205
9.64452	0.00286
9.71696	-0.00052
9.78939	0.00254
9.85148	0.00270
9.91357	0.00383
9.97566	0.00560
10.03775	0.00093
10.13088	-0.00052
10.19297	0.00270
10.25506	0.00141
10.31715	-0.00117
10.37924	0.00205
10.44133	0.00286
10.50342	0.00447
10.56551	0.00286
10.61725	0.00060
10.67934	0.00366
10.75178	0.00189
10.82421	0.00318
10.88630	0.00383
10.94839	0.00866
11.01048	0.00576
11.09327	0.00479
11.14501	0.00689
11.18640	0.00479
11.22779	0.00801
11.26919	0.00447
11.34162	0.00608
11.39336	0.00882
11.44510	0.00962
11.50719	0.01107
11.57963	0.00882
11.66242	0.00801
11.72451	0.01285
11.78660	0.00979
11.87973	0.01236
11.94182	0.01075
12.01426	0.01317
12.08669	0.02332
12.16948	0.02058
12.25226	0.01977
12.31435	0.02461
12.36609	0.02751
12.45923	0.02348
12.52132	0.02912
12.58341	0.03298
12.64550	0.03943
12.71793	0.04152
12.79037	0.04539
12.86281	0.04893
12.93525	0.05119
13.01803	0.05538
13.09047	0.06182
13.19395	0.07020
13.27674	0.08260
13.38022	0.08727
13.46300	0.09710
13.56649	0.10773
13.66997	0.11724
13.77345	0.13190
13.88728	0.14591
13.99076	0.16138
14.10459	0.18007
14.21842	0.19166
14.33225	0.20745
14.43573	0.22388
14.53922	0.23935
14.65305	0.25240
14.75653	0.26078
14.87036	0.26545
14.97384	0.27237
15.04628	0.27495
15.13941	0.27109
15.20150	0.27237
15.27394	0.26947
15.35672	0.26110
15.41881	0.25224
15.48090	0.25159
15.53264	0.24144
15.59473	0.23564
15.66717	0.22421
15.70856	0.22082
15.77065	0.20745
15.82239	0.19875
15.88448	0.19247
15.94657	0.18200
16.01901	0.16766
16.09144	0.16524
16.16388	0.15171
16.23632	0.13947
16.30876	0.13351
16.37085	0.12223
16.44328	0.11224
16.51572	0.10258
16.56746	0.09549
16.65025	0.08615
16.74338	0.08163
16.80547	0.07374
16.88826	0.06408
16.95035	0.05489
17.02278	0.05103
17.08487	0.04507
17.14696	0.04233
17.21940	0.03540
17.27114	0.02847
17.33323	0.02944
17.38497	0.02219
17.45741	0.02203
17.52984	0.01913
17.61263	0.01929
17.68507	0.01559
17.75750	0.01059
17.81959	0.00882
17.88168	0.00656
17.95412	0.00544
18.01621	0.00447
18.06795	0.00592
18.13004	0.00415
18.19213	0.00866
18.23352	0.00334
18.27491	-0.00036
18.33700	0.00012
18.39909	-0.00181
18.45083	0.00576
18.50257	0.00012
18.56466	0.00318
18.62675	0.00350
18.67849	0.00093
18.75093	0.00334
18.81302	0.00093
18.88546	-0.00165
18.94755	0.00141
19.00964	0.00141
19.06138	0.00012
19.10277	0.00254
19.14416	-0.00197
19.18556	0.00028
19.23730	0.00205
19.27869	0.00366
19.33043	0.00238
19.38217	0.00205
19.43391	0.00060
19.47531	0.00141
19.52705	0.00221
19.57879	0.00076
19.63053	0.00109
19.69262	0.00076
19.75471	-0.00085
19.81680	-0.00069
19.87888	-0.00214
19.94097	0.00399
20.00306	0.00286
20.06515	-0.00214
20.12724	0.00093
20.18933	0.00302
20.26177	0.00302
20.33421	0.00173
20.38595	0.00189
20.44804	0.00125
20.52047	-0.00101
20.58256	0.00656
20.66535	0.00286
20.74813	-0.00181
20.83092	0.00221
20.91370	0.00399
21.00684	0.00173
21.09997	0.00044
21.18276	0.00205
21.26554	0.00141
21.35868	0.00109
21.45181	0.00640
21.53460	0.00366
21.62773	-0.00004
21.70017	0.00044
21.77260	0.00350
21.84504	0.00125
21.90713	0.00157
21.97957	0.00334
22.03131	0.00173
22.10375	0.00125
22.16584	0.00334
22.22793	0.00318
22.29001	0.00302
22.35210	0.00350
22.42454	0.00318
22.48663	0.00270
22.54872	0.00366
22.61081	-0.00085
22.67290	0.00173
22.73499	0.00125
22.81777	0.00318
22.87986	0.00431
22.95230	0.00173
23.02474	0.00238
23.09717	0.00447
23.16961	0.00205
23.24205	0.00302
23.31449	0.00205
23.39727	-0.00165
23.48006	0.00592
23.55249	0.00012
23.63528	0.00447
23.70772	0.00302
23.78015	0.00608
23.85259	0.00431
23.91468	0.00527
23.97677	0.00157
24.02851	0.00560
24.08025	0.00221
24.13199	0.00383
24.18373	0.00205
24.23548	0.00076
24.28722	0.00157
24.33896	-0.00004
24.39070	0.00060
24.43209	0.00640
24.49418	0.00753
24.53557	0.00431
24.59766	0.00769
24.64940	0.00221
24.70114	0.00415
24.75289	0.00350
24.80463	0.00366
24.85637	0.00544
24.90811	0.00302
24.95985	0.00350
25.02194	0.00431
25.08403	0.00640
25.14612	0.00576
25.20821	0.00350
25.28064	0.00544
25.34273	0.00850
25.42552	0.00431
25.49796	0.00350
25.57039	0.00672
25.64283	0.00898
25.70492	0.00286
25.76701	0.00592
25.82910	0.00721
25.89119	0.00093
25.95328	0.00318
26.01537	0.00463
26.05676	0.00093
26.10850	0.00141
26.16024	0.00753
26.22233	0.00705
26.28442	0.00769
26.34651	0.00560
26.41894	0.00560
26.48103	0.00930
26.53277	0.00415
26.59486	0.00705
26.65695	0.00205
26.70869	0.00560
26.77078	0.00560
26.83287	0.00576
26.87427	0.00270
26.92601	0.00656
26.98810	0.00544
27.05018	0.00769
27.11227	0.00640
27.17436	0.00705
27.22610	0.00705
27.27784	0.00350
27.31924	0.00560
27.38133	0.00495
27.43307	0.00866
27.49516	0.00334
27.55725	0.00431
27.60899	0.00383
27.66073	0.00737
27.71247	0.00801
27.76421	0.00560
27.82630	0.00415
27.89874	0.00834
27.98152	0.00173
28.05396	0.00527
28.12640	0.00221
28.18849	0.00544
28.25058	0.00463
28.31266	0.00463
28.37475	0.00769
28.41615	0.00399
28.48858	0.00672
28.55067	0.00640
28.61276	0.00817
28.67485	0.00946
28.72659	0.00544
28.79903	0.00866
28.85077	0.00834
28.90251	0.00898
28.95425	0.01091
29.01634	0.00705
29.07843	0.00527
29.14052	0.00463
29.20261	0.00930
29.25435	0.00495
29.32679	0.00511
29.37853	0.00801
29.45097	0.00350
29.51306	0.00785
29.58549	0.00946
29.63723	0.00415
29.68897	0.00656
29.75106	0.00640
29.83385	0.00801
29.89594	0.00737
29.95803	0.00882
30.02012	0.00560