Black Body Radiation Experiment Wed, Sep 23, 2020 11:48 AM
Sensor Position (Degrees)	Light Intensity (Volts)
0.00000	-0.01373
0.00000	-0.00842
0.00000	-0.01261
0.00000	-0.00955
0.00000	-0.01212
0.00000	-0.01180
0.00000	-0.01325
0.00000	-0.00955
0.00000	-0.01373
0.00000	-0.01019
0.00000	-0.00987
0.00000	-0.01293
0.00000	-0.01583
0.00000	-0.01551
0.00000	-0.00922
0.00000	-0.01277
0.00000	-0.00745
0.00000	-0.01486
0.00000	-0.00826
0.00000	-0.01390
0.00000	-0.00938
0.00000	-0.01212
0.00000	-0.01390
0.00000	-0.01486
0.00000	-0.01196
0.00000	-0.01293
0.00000	-0.01390
0.00000	-0.01196
0.00000	-0.00874
0.00000	-0.01132
0.00000	-0.00906
0.00000	-0.01164
0.00000	-0.01067
0.00000	-0.01196
0.00000	-0.01116
0.00000	-0.00745
0.00000	-0.00971
0.00000	-0.01567
0.00000	-0.01003
0.00000	-0.01228
0.00000	-0.01357
0.00000	-0.01357
0.00000	-0.01180
0.00000	-0.01470
0.00000	-0.01261
0.00000	-0.01051
0.00000	-0.01051
0.00000	-0.00890
0.00000	-0.01341
0.00000	-0.01808
0.00000	-0.00890
0.00000	-0.01067
0.00000	-0.01212
0.00000	-0.01100
0.00000	-0.01293
0.00000	-0.01164
0.00000	-0.01067
0.00000	-0.01148
0.00000	-0.01454
0.00000	-0.01019
0.00000	-0.01035
0.00000	-0.00938
0.00000	-0.00971
0.00000	-0.01615
0.00000	-0.01003
0.00000	-0.00810
0.00000	-0.01438
0.00000	-0.01454
0.00000	-0.01390
0.00000	-0.01132
0.00000	-0.01454
0.00000	-0.01502
0.00000	-0.01132
0.00000	-0.01019
0.00000	-0.01277
0.00000	-0.01035
0.00000	-0.01019
0.00000	-0.00987
0.00000	-0.01003
0.00000	-0.01454
0.00000	-0.00987
0.00000	-0.00761
0.00000	-0.01132
0.00000	-0.00761
0.00000	-0.01003
0.00000	-0.00922
0.00000	-0.01261
0.00000	-0.00842
0.00000	-0.01035
0.00000	-0.01164
0.00000	-0.01744
0.00000	-0.01212
0.00000	-0.01083
0.00000	-0.01373
0.00000	-0.01373
0.00000	-0.01148
0.00000	-0.01083
0.00000	-0.01067
0.00000	-0.01132
0.00000	-0.01228
0.00000	-0.01132
0.00000	-0.01196
0.00000	-0.00794
0.00000	-0.01116
0.00000	-0.01148
0.00000	-0.01390
0.00000	-0.00987
0.00000	-0.01067
0.00000	-0.01357
0.00000	-0.01341
0.00000	-0.00665
0.00000	-0.00810
0.00000	-0.01100
0.00000	-0.01438
0.00000	-0.01196
0.00000	-0.00745
0.00000	-0.00794
0.00000	-0.01486
0.00000	-0.00971
0.00000	-0.01148
0.00000	-0.01212
0.00000	-0.01003
0.00000	-0.01067
0.00000	-0.01100
0.00000	-0.01293
0.00000	-0.01164
0.00000	-0.01196
0.00000	-0.00922
0.00000	-0.01776
0.00000	-0.01180
0.00000	-0.01132
0.00000	-0.00874
0.00000	-0.01341
0.00000	-0.01373
0.00000	-0.01309
0.00000	-0.01486
0.00000	-0.01406
0.00000	-0.00987
0.00000	-0.00987
0.00000	-0.01019
0.00000	-0.01164
0.00000	-0.01341
0.00000	-0.01873
0.00000	-0.01309
0.00000	-0.01180
0.00000	-0.00971
0.00000	-0.01212
0.00000	-0.01228
0.00000	-0.01067
0.00000	-0.00826
0.00000	-0.01261
0.00000	-0.01245
0.00000	-0.00922
0.00000	-0.01116
0.00000	-0.01212
0.00000	-0.01341
0.00000	-0.01341
0.00000	-0.01067
0.00000	-0.01422
0.00000	-0.01567
0.00000	-0.01373
0.00000	-0.01035
0.00000	-0.01051
0.00000	-0.01067
0.00000	-0.01003
0.00000	-0.00971
0.00000	-0.01003
0.00000	-0.01212
0.00000	-0.00858
0.00000	-0.01325
0.00000	-0.01164
0.00000	-0.01293
0.00000	-0.01373
0.00000	-0.01277
0.00000	-0.01019
0.00000	-0.01583
0.00000	-0.01261
0.00000	-0.00987
0.00000	-0.00987
0.00000	-0.01390
0.00000	-0.01019
0.00000	-0.01293
0.00000	-0.01390
0.00000	-0.01132
0.00000	-0.01212
0.00000	-0.01212
0.00000	-0.01148
0.00000	-0.01051
0.00000	-0.01228
0.00000	-0.01390
0.00000	-0.01035
0.00000	-0.01454
0.00000	-0.01100
0.01035	-0.01003
0.01035	-0.00922
0.01035	-0.01373
0.01035	-0.01277
0.01035	-0.01341
0.01035	-0.01083
0.01035	-0.01357
0.01035	-0.01486
0.01035	-0.01100
0.01035	-0.01438
0.01035	-0.01067
0.01035	-0.01357
0.01035	-0.01357
0.01035	-0.01245
0.01035	-0.01518
0.01035	-0.01341
0.01035	-0.01083
0.01035	-0.01196
0.02070	-0.01406
0.02070	-0.01341
0.02070	-0.01116
0.02070	-0.01003
0.02070	-0.01712
0.02070	-0.01470
0.02070	-0.00794
0.02070	-0.01083
0.02070	-0.01164
0.02070	-0.01003
0.02070	-0.00987
0.02070	-0.01567
0.02070	-0.01245
0.02070	-0.01116
0.02070	-0.01245
0.02070	-0.01196
0.02070	-0.01438
0.02070	-0.01003
0.02070	-0.01164
0.02070	-0.01390
0.02070	-0.01792
0.02070	-0.01357
0.02070	-0.00697
0.02070	-0.01357
0.02070	-0.01422
0.02070	-0.01116
0.02070	-0.01132
0.02070	-0.01035
0.02070	-0.01422
0.03104	-0.01309
0.04139	-0.01116
0.06209	-0.01100
0.09313	-0.01164
0.15522	-0.01228
0.21731	-0.01486
0.31045	-0.01438
0.44497	-0.01406
0.55880	-0.01631
0.69333	-0.01373
0.80716	-0.01277
0.92099	-0.01454
1.03482	-0.01535
1.14865	-0.01422
1.25213	-0.00890
1.35561	-0.01180
1.44875	-0.01502
1.55223	-0.01631
1.63501	-0.01051
1.72815	-0.01615
1.81093	-0.00874
1.91442	-0.01019
2.01790	-0.01293
2.12138	-0.01083
2.22486	-0.01325
2.33869	-0.01212
2.45252	-0.01116
2.57670	-0.01293
2.70088	-0.01341
2.79401	-0.01245
2.88715	-0.00745
2.95958	-0.01309
3.05272	-0.01180
3.14585	-0.00681
3.24933	-0.00729
3.34247	-0.00697
3.43560	-0.01245
3.50804	-0.01100
3.57013	-0.00665
3.62187	-0.01051
3.68396	-0.01180
3.73570	-0.01116
3.79779	-0.01293
3.84953	-0.01196
3.89092	-0.01470
3.93231	-0.00922
3.97371	-0.01132
4.03580	-0.00842
4.09789	-0.01019
4.18067	-0.01390
4.25311	-0.00971
4.32555	-0.01470
4.39798	-0.01277
4.44972	-0.01390
4.51181	-0.01406
4.57390	-0.01083
4.65669	-0.00761
4.73947	-0.01293
4.81191	-0.00713
4.88435	-0.00922
4.95679	-0.01100
5.02922	-0.00874
5.11201	-0.00987
5.18445	-0.00826
5.25688	-0.01116
5.33967	-0.01261
5.41211	-0.00777
5.49489	-0.01228
5.59837	-0.01067
5.70186	-0.01035
5.82603	-0.01599
5.92952	-0.01035
6.04335	-0.01019
6.15718	-0.00632
6.28136	-0.01051
6.46762	-0.00858
6.57110	-0.01470
6.68493	-0.01228
6.79876	-0.01019
6.93329	-0.01019
7.07817	-0.01035
7.19200	-0.00874
7.32652	-0.01293
7.45070	-0.00729
7.56453	-0.00938
7.69906	-0.00906
7.80254	-0.01083
7.90602	-0.00971
8.00950	-0.00810
8.12333	-0.00826
8.23716	-0.00858
8.35099	-0.02082
8.46482	-0.00745
8.64074	-0.01293
8.77527	-0.01357
8.89945	-0.01164
9.01328	-0.01212
9.12711	-0.01083
9.25129	-0.00938
9.35477	-0.01357
9.45825	-0.01261
9.58243	-0.00842
9.69626	-0.00777
9.79974	-0.01357
9.90322	-0.01744
9.99636	-0.01019
10.08949	-0.01277
10.18262	-0.00826
10.27576	-0.01293
10.37924	-0.00987
10.49307	-0.01003
10.60690	-0.01003
10.71038	-0.01067
10.79317	-0.00938
10.89665	-0.01390
10.98978	-0.01019
11.07257	-0.00906
11.14501	-0.00697
11.21744	-0.00745
11.30023	-0.00826
11.36232	-0.00826
11.43476	-0.00729
11.48650	-0.00713
11.57963	-0.00890
11.66242	-0.00616
11.74520	-0.00487
11.82799	-0.00471
11.93147	-0.00649
12.01426	-0.01003
12.09704	-0.00536
12.16948	0.00012
12.26261	-0.00278
12.36609	-0.00471
12.43853	-0.00165
12.51097	0.00125
12.59375	0.00366
12.70758	-0.00101
12.81107	0.00141
12.88350	0.00044
12.95594	0.00334
13.01803	0.00624
13.09047	0.00527
13.18360	0.00866
13.25604	0.01156
13.35952	0.01961
13.48370	0.02428
13.58718	0.02686
13.69066	0.02992
13.79415	0.04458
13.89763	0.04555
14.01146	0.05006
14.12529	0.06665
14.21842	0.06826
14.31156	0.07777
14.36330	0.08357
14.45643	0.09710
14.52887	0.10354
14.62200	0.11095
14.71513	0.11547
14.82897	0.12626
14.92210	0.12755
15.01523	0.13319
15.06697	0.13125
15.14976	0.13802
15.21185	0.13174
15.30498	0.13399
15.35672	0.13415
15.40846	0.13206
15.47055	0.12980
15.53264	0.12352
15.59473	0.12191
15.66717	0.12126
15.73961	0.11482
15.81204	0.10950
15.89483	0.10838
15.97761	0.10628
16.03970	0.09984
16.10179	0.08937
16.16388	0.09050
16.22597	0.08083
16.29841	0.07616
16.37085	0.06826
16.44328	0.06037
16.49502	0.05956
16.55711	0.05522
16.61920	0.05167
16.68129	0.04523
16.74338	0.04458
16.80547	0.03927
16.85721	0.03508
16.90895	0.03363
16.97104	0.02815
17.02278	0.02412
17.09522	0.01945
17.15731	0.01478
17.21940	0.01333
17.28149	0.01140
17.35392	0.01478
17.41601	0.00882
17.46776	0.00737
17.52984	0.00463
17.59193	0.00608
17.66437	0.00431
17.73681	0.00270
17.79890	0.00141
17.85064	-0.00165
17.90238	-0.00149
17.95412	-0.00407
18.00586	-0.00149
18.05760	-0.00326
18.10934	-0.00632
18.16108	-0.00810
18.22317	-0.00536
18.28526	-0.00004
18.34735	-0.00890
18.39909	-0.00487
18.46118	-0.00439
18.53362	-0.00810
18.58536	-0.00938
18.63710	-0.00439
18.68884	-0.00858
18.75093	-0.00487
18.80267	-0.00584
18.86476	-0.00906
18.93720	-0.00455
19.00964	-0.00278
19.07173	-0.00310
19.14416	-0.00649
19.21660	-0.00342
19.28904	-0.00761
19.36147	-0.00697
19.43391	-0.00665
19.50635	-0.00584
19.57879	-0.00842
19.64088	-0.00777
19.70297	-0.00391
19.77540	-0.01083
19.84784	-0.00455
19.90993	-0.00681
19.97202	-0.00632
20.04446	-0.00745
20.10655	-0.00616
20.16863	-0.00858
20.22038	-0.01164
20.28246	-0.00649
20.34455	-0.00455
20.40664	-0.00149
20.46873	-0.00858
20.54117	-0.00375
20.60326	-0.00665
20.66535	-0.00520
20.71709	-0.00649
20.76883	-0.00938
20.84127	-0.00133
20.91370	-0.00455
20.97579	-0.00858
21.04823	-0.00246
21.12067	-0.00294
21.20345	-0.00600
21.27589	-0.00536
21.34833	-0.00858
21.42077	-0.00375
21.48286	-0.00262
21.54494	-0.00681
21.60703	-0.00552
21.65877	-0.00890
21.73121	-0.00745
21.79330	-0.00471
21.86574	-0.00906
21.93818	-0.00439
22.00026	-0.00552
22.07270	-0.00407
22.13479	-0.00471
22.18653	-0.00375
22.22793	-0.00777
22.26932	-0.00616
22.32106	-0.00326
22.38315	-0.00294
22.44524	-0.00085
22.50733	-0.00455
22.54872	-0.00294
22.60046	-0.00745
22.66255	-0.00761
22.73499	-0.00455
22.79708	-0.00729
22.86951	-0.00874
22.93160	-0.00665
23.00404	-0.00214
23.06613	-0.00439
23.12822	-0.00133
23.20066	-0.00326
23.26274	-0.00262
23.32483	-0.00117
23.37657	-0.00455
23.42832	-0.00214
23.49041	-0.00294
23.56284	-0.00600
23.62493	-0.00536
23.68702	-0.00487
23.73876	-0.00181
23.78015	-0.01051
23.83190	-0.00262
23.87329	0.00157
23.93538	-0.00391
23.98712	-0.00246
24.04921	-0.00536
24.09060	-0.00246
24.14234	-0.00375
24.19408	-0.00359
24.26652	-0.00471
24.31826	-0.00423
24.37000	-0.00246
24.41139	-0.00326
24.44244	-0.00600
24.48383	-0.00568
24.53557	-0.00600
24.58731	-0.00375
24.62871	0.00060
24.68045	-0.00020
24.73219	-0.00455
24.79428	0.00012
24.84602	-0.00616
24.89776	-0.00036
24.95985	-0.00504
25.01159	-0.00342
25.06333	-0.00262
25.11507	-0.00326
25.15646	-0.00262
25.21855	-0.00665
25.27029	-0.00246
25.33238	-0.00133
25.38413	0.00495
25.42552	0.00270
25.47726	0.00012
25.52900	-0.00020
25.58074	-0.00391
25.63248	-0.00214
25.69457	-0.00133
25.74631	-0.00165
25.79805	-0.00069
25.86014	-0.00342
25.93258	-0.00294
25.99467	-0.00181
26.05676	-0.00069
26.11885	-0.00246
26.18094	-0.00117
26.24303	-0.00149
26.30511	0.00044
26.37755	0.00012
26.44999	-0.00101
26.51208	-0.00536
26.59486	-0.00117
26.65695	-0.00326
26.72939	-0.00391
26.79148	0.00060
26.86392	0.00286
26.92601	-0.00181
26.98810	0.00270
27.05018	-0.00020
27.10193	-0.00052
27.16401	-0.00197
27.20541	0.00109
27.25715	-0.00069
27.29854	0.00286
27.35028	0.00125
27.40202	0.00302
27.45376	0.00076
27.51585	0.00109
27.56759	0.00157
27.62968	0.00044
27.68142	0.00157
27.73317	0.00028
27.77456	0.00157
27.82630	-0.00036
27.88839	0.00431
27.94013	0.00060
27.99187	-0.00020
28.04361	0.00189
28.10570	-0.00278
28.15744	-0.00101
28.20918	-0.00101
28.27127	0.00189
28.31266	-0.00197
28.36441	-0.00101
28.41615	0.00060
28.45754	0.00205
28.49893	-0.00165
28.52998	0.00527
28.56102	-0.00165
28.59207	0.00060
28.62311	0.00318
28.66450	0.00093
28.70590	0.00302
28.74729	0.00366
28.78868	0.00399
28.81973	0.00125
28.86112	-0.00326
28.90251	0.00060
28.94390	0.00189
28.97495	-0.00085
29.00599	-0.00181
29.04739	0.00157
29.08878	0.00028
29.13017	-0.00085
29.16122	0.00334
29.20261	0.00141
29.25435	0.00093
29.30609	-0.00101
29.34748	0.00238
29.39923	0.00205
29.45097	0.00093
29.49236	-0.00342
29.53375	-0.00101
29.57514	0.00060
29.62689	0.00479
29.67863	-0.00342
29.73037	0.00125
29.79246	0.00157
29.84420	-0.00149
29.89594	0.00173
29.94768	0.00415
30.00977	-0.00020
30.06151	0.00109
30.11325	-0.00085
30.16499	0.00012
30.21673	0.00447
30.27882	0.00544
30.33056	0.00350
30.39265	0.00302
30.44439	-0.00197
30.48579	0.00286
30.53753	0.00125
30.58927	0.00270
30.64101	0.00173
30.69275	0.00527
30.74449	0.00157
30.79623	0.00383
30.84797	-0.00230
30.89971	0.00495
30.95145	0.00044
31.00320	0.00189
31.05494	0.00076
31.10668	-0.00036
31.14807	0.00318
31.19981	-0.00085
31.25155	-0.00085
31.29295	0.00189
31.33434	0.00044
31.37573	-0.00375
31.42747	-0.00004
31.47921	-0.00165
31.53095	-0.00020
31.58269	0.00366
31.62409	0.00383
31.66548	0.00076
31.70687	0.00318
31.74827	-0.00133
31.78966	0.00254
31.84140	-0.00117
31.89314	0.00254
31.94488	0.00093
31.99662	-0.00085
32.04836	-0.00101
32.11045	0.00415
32.16219	0.00141
32.21393	0.00141
32.26568	0.00157
32.30707	0.00093
32.34846	0.00270
32.41055	-0.00036
32.46229	0.00302
32.53473	0.00205
32.60717	-0.00069
32.67960	-0.00004
32.74169	-0.00085
32.79343	0.00012
32.85552	0.00350
32.90726	0.00173
32.96935	0.00640
33.03144	-0.00133
33.09353	0.00334
33.16597	-0.00004
33.22806	0.00431
33.30050	-0.00214
33.36258	0.00350
33.43502	0.00592
33.49711	-0.00133
33.56955	-0.00052
33.64199	0.00157
33.70407	0.00302
33.78686	0.00560
33.83860	0.00076
33.90069	0.00076
33.97313	0.00157
34.02487	0.00286
34.09731	0.00109
34.16974	0.00737
34.23183	0.00109
34.30427	-0.00036
34.36636	0.00270
34.42845	0.00334
34.50089	0.00302
34.58367	0.00044
34.66646	0.00640
34.73889	0.00173
34.80098	0.00511
34.87342	0.00302
34.94586	0.00205
35.00795	0.00560
35.07004	0.00447
35.14247	-0.00004
35.20456	0.00366
35.25630	0.00286
35.31839	0.00141
35.37013	0.00205
35.42188	0.00012
35.47362	0.00350
35.51501	0.00093
35.56675	-0.00359
35.61849	0.00189
35.68058	0.00060
35.73232	0.00286
35.79441	0.00383
35.84615	0.00495
35.89789	0.00157
35.93929	0.00109
35.99103	0.00238
36.04277	0.00028
36.08416	0.00479
36.12555	0.00366
36.17729	0.00205
36.22903	0.00157
36.28078	0.00125
36.33252	0.00189
36.38426	0.00093
36.43600	-0.00085
36.49809	0.00415
36.54983	-0.00101
36.59122	0.00350
36.63261	-0.00101
36.67401	0.00157
36.71540	0.00463
36.75679	0.00205
36.78784	0.00205
36.82923	-0.00052
36.87062	-0.00149
36.91202	-0.00101
36.95341	-0.00246
36.99480	0.00093
37.03619	0.00012
37.08793	0.00238
37.12933	-0.00197
37.19142	-0.00455
37.25351	-0.00101
37.29490	0.00221
37.34664	-0.00004
37.39838	0.00592
37.45012	0.00173
37.50186	-0.00230
37.55360	-0.00069
37.60534	0.00286
37.65709	-0.00326
37.70883	0.00592
37.76057	-0.00004
37.82266	0.00302
37.87440	0.00189
37.92614	0.00189
37.99858	0.00415
38.05032	0.00254
38.11241	-0.00052
38.16415	-0.00294
38.21589	-0.00004
38.27798	0.00334
38.32972	-0.00101
38.39181	-0.00214
38.44355	-0.00230
38.49529	-0.00117
38.53668	-0.00197
38.56773	0.00076
38.60912	-0.00036
38.64016	0.00076
38.68156	0.00044
38.71260	-0.00101
38.75399	-0.00004
38.79539	0.00286
38.82643	0.00221
38.87817	0.00318
38.91957	0.00028
38.96096	0.00060
39.00235	-0.00085
39.03340	0.00125
39.06444	0.00076
39.10583	0.00173
39.14723	-0.00471
39.18862	-0.00342
39.24036	-0.00149
39.29210	0.00157
39.34384	0.00205
39.39558	-0.00197
39.45767	-0.00262
39.50941	0.00012
39.58185	0.00254
39.64394	-0.00117
39.70603	-0.00020
39.76812	-0.00117
39.80951	-0.00246
39.86125	-0.00342
39.91299	-0.00326
39.96473	-0.00101
40.00613	-0.00085
40.05787	-0.00230
40.08891	-0.00117
40.14065	-0.00036
40.19239	-0.00326
40.23379	-0.00246
40.27518	-0.00101
40.30622	-0.00197
40.34762	0.00125
40.37866	-0.00294
40.40971	-0.00101
40.45110	-0.00149
40.48214	-0.00246
40.51319	-0.00181
40.54423	-0.00149
40.57528	0.00109
40.61667	-0.00359
40.64771	-0.00197
40.68911	-0.00391
40.72015	-0.00230
40.76154	-0.00584
40.80294	-0.00036
40.85468	-0.00520
40.89607	0.00109
40.93746	-0.00616
40.98920	-0.00439
41.05129	-0.00310
41.10303	-0.00342
41.16512	0.00060
41.21687	0.00076
41.26861	-0.00294
41.31000	-0.00246
41.35139	-0.00246
41.39278	-0.00069
41.42383	-0.00600
41.45487	-0.00149
41.48592	-0.00133
41.50661	-0.00487
41.52731	-0.00085
41.53766	-0.00214
41.54801	-0.00214
41.56870	-0.00133
41.58940	-0.00181
41.62044	-0.00230
41.65149	-0.00616
41.69288	-0.00987
41.73427	-0.00069
41.78602	-0.00278
41.83776	-0.00616
41.88950	-0.00101
41.94124	-0.00391
41.99298	-0.00794
42.05507	-0.00359
42.11716	-0.00326
42.17925	-0.00246
42.23099	-0.00632
42.30343	-0.00616
42.36551	-0.00649
42.42760	-0.00342
42.48969	-0.00649
42.55178	-0.00810
42.60352	-0.00504
42.65526	-0.00439
42.71735	-0.00504
42.77944	-0.00745
42.83118	-0.00665
42.88292	-0.00423
42.92432	-0.00197
42.96571	-0.00197
43.00710	-0.00214
43.04850	-0.00616
43.11058	-0.00342
43.16233	-0.00310
43.21407	-0.00649
43.26581	-0.00101
43.31755	-0.00117
43.36929	-0.00826
43.43138	0.00012
43.48312	-0.00600
43.54521	-0.00455
43.59695	-0.00600
43.64869	-0.00326
43.70043	-0.00455
43.75217	-0.00375
43.80391	-0.00713
43.85566	-0.00810
43.90740	-0.00552
43.95914	-0.00326
44.01088	-0.00423
44.06262	-0.00342
44.10401	0.00012
44.14540	-0.00326
44.19715	-0.00197
44.23854	-0.00616
44.26958	-0.00584
44.30063	-0.00536
44.33167	-0.00826
44.36272	-0.00681
44.39376	-0.00181
44.42481	-0.00375
44.46620	-0.00890
44.50759	-0.00391
44.53864	-0.00665
44.56968	-0.00214
44.60073	-0.00165
44.63177	-0.00584
44.68351	-0.00568
44.72490	-0.00616
44.78699	-0.00520
44.83873	-0.00278
44.89047	-0.00230
44.93187	-0.00391
44.97326	-0.00326
45.02500	-0.00455
45.06639	-0.00455
45.11814	-0.00165
45.15953	-0.00471
45.21127	-0.00681
45.27336	-0.00471
45.32510	-0.00391
45.38719	-0.00407
45.43893	-0.00149
45.49067	-0.00214
45.54241	-0.00681
45.60450	-0.00181
45.65624	-0.00165
45.71833	-0.00439
45.75972	-0.00342
45.80112	-0.00326
45.84251	-0.00455
45.88390	-0.00262
45.92529	-0.00246
45.97704	-0.00423
46.00808	-0.00471
46.04947	-0.00600
46.08052	-0.00117
46.11156	-0.00359
46.13226	-0.00504
46.16330	-0.00471
46.20470	-0.00842
46.23574	-0.00439
46.25644	-0.00407
46.29783	-0.00246
46.31853	-0.00181
46.34957	-0.00536
46.37027	-0.00214
46.40131	-0.00697
46.42201	-0.00246
46.45305	-0.00375
46.48410	-0.00310
46.51514	-0.00326
46.54619	-0.00697
46.57723	-0.00552
46.60828	-0.00214
46.64967	-0.00665
46.69106	-0.00681
46.73245	-0.00294
46.77385	-0.00761
46.82559	-0.00745
46.87733	-0.00826
46.92907	-0.00697
46.98081	-0.00423
47.03255	-0.00487
47.09464	-0.00455
47.15673	-0.00471
47.19812	-0.00761
47.23952	-0.00504
47.27056	-0.00504
47.30160	-0.00649
47.32230	-0.01035
47.36369	-0.00874
47.40509	-0.00874
47.44648	-0.00842
47.47752	-0.00632
47.52926	-0.00971
47.58101	-0.00504
47.62240	-0.00584
47.66379	-0.00407
47.68449	-0.00584
47.72588	-0.00407
47.75693	-0.00375
47.78797	-0.00165
47.81901	-0.00439
47.85006	-0.00342
47.90180	-0.00745
47.95354	-0.00681
48.00528	-0.00375
48.04667	-0.00101
48.07772	-0.00890
48.10876	-0.00665
48.13981	-0.00423
48.17085	-0.00439
48.20190	-0.00600
48.24329	-0.00568
48.28468	-0.00584
48.32608	-0.00745
48.36747	-0.00632
48.40886	-0.00536
48.45025	-0.00616
48.48130	-0.00616
48.52269	-0.00407
48.54339	-0.00455
48.57443	-0.00955
48.60548	-0.00262
48.62617	-0.00536
48.65722	-0.00278
48.68826	-0.01051
48.72966	-0.00133
48.77105	-0.00504
48.81244	-0.00665
48.86418	-0.00665
48.91592	-0.00487
48.94697	-0.00552
48.98836	-0.00729
49.02975	-0.00600
49.07115	-0.00697
49.12289	-0.00729
49.17463	-0.00649
49.22637	-0.01083
49.27811	-0.01083
49.34020	-0.01083
49.38159	-0.00987
49.43333	-0.00600
49.49542	-0.00197
49.54716	-0.00262
49.60925	-0.00810
49.66099	-0.00761
49.71273	-0.00439
49.77482	-0.00520
49.82656	-0.01003
49.88865	-0.00745
49.95074	-0.00455
50.02318	-0.01019
50.09562	-0.00520
50.16805	-0.00536
50.23014	-0.00649
50.29223	-0.00616
50.35432	-0.00697
50.40606	-0.00471
50.46815	-0.00197
50.50955	-0.00359
50.57163	-0.00826
50.61303	-0.00713
50.65442	-0.00375
50.69581	-0.00391
50.73721	-0.00697
50.77860	-0.00359
50.81999	-0.00616
50.88208	-0.00890
50.94417	-0.00729
50.99591	-0.00407
51.06835	-0.01003
51.15113	-0.00423
51.23392	-0.00375
51.29601	-0.00439
51.36845	-0.01293
51.42019	-0.00826
51.48228	-0.00568
51.54436	-0.00729
51.61680	-0.00520
51.68924	-0.00649
51.74098	-0.00665
51.80307	-0.00794
51.85481	-0.00278
51.91690	-0.00536
51.96864	-0.00745
52.02038	-0.00665
52.07212	-0.00439
52.11352	-0.00713
52.15491	-0.00455
52.19630	-0.00262
52.25839	-0.00471
52.31013	-0.00616
52.36187	-0.00423
52.41361	-0.00826
52.46535	-0.01003
52.50675	-0.00359
52.54814	-0.00391
52.59988	-0.00439
52.64127	-0.00761
52.68267	-0.00874
52.71371	-0.00713
52.74476	-0.00729
52.77580	-0.00342
52.79650	-0.00890
52.83789	-0.00600
52.85859	-0.00890
52.89998	-0.00262
52.92067	-0.00375
52.96207	-0.00278
52.99311	-0.00552
53.03451	-0.00391
53.07590	-0.00487
53.13799	-0.00697
53.18973	-0.00697
53.24147	-0.00552
53.27251	-0.00568
53.30356	-0.00568
53.34495	-0.00681
53.37600	-0.00375
53.41739	-0.00520
53.45878	-0.00342
53.48983	-0.00342
53.52087	-0.00616
53.55191	-0.00810
53.58296	-0.00536
53.62435	-0.00439
53.66574	-0.00616
53.70714	-0.00681
53.74853	-0.01019
53.78992	-0.00874
53.84166	-0.00536
53.88306	-0.00568
53.92445	-0.00359
53.97619	-0.00842
54.02793	-0.00262
54.06932	-0.00842
54.10037	-0.00906
54.14176	-0.00826
54.18315	-0.00310
54.22455	-0.00890
54.26594	-0.00616
54.30733	-0.00342
54.33838	-0.00455
54.37977	-0.00713
54.42116	-0.00536
54.46256	-0.00745
54.51430	-0.00810
54.55569	-0.00697
54.59708	-0.01035
54.63848	-0.00922
54.66952	-0.00922
54.70056	-0.00439
54.73161	-0.00407
54.75231	-0.00584
54.78335	-0.00649
54.80405	-0.00552
54.82474	-0.01003
54.84544	-0.00552
54.87648	-0.00584
54.89718	-0.00697
54.91788	-0.00794
54.93857	-0.00536
54.95927	-0.00874
54.99031	-0.01019
55.02136	-0.00761
55.05240	-0.00858
55.09380	-0.00938
55.13519	-0.00294
55.18693	-0.00471
55.22832	-0.01164
55.28006	-0.00423
55.33180	-0.00455
55.37320	-0.00874
55.41459	-0.00439
55.45598	-0.00520
55.49738	-0.00761
55.53877	-0.00745
55.56981	-0.00375
55.61121	-0.00246
55.64225	-0.00568
55.67330	-0.00310
55.70434	-0.00971
55.74573	-0.00600
55.78713	-0.00632
55.82852	-0.00181
55.86991	-0.00568
55.90096	-0.00310
55.95270	-0.00568
56.00444	-0.01051
56.04583	-0.00423
56.08722	-0.00520
56.11827	-0.00681
56.15966	-0.00681
56.19070	-0.00826
56.22175	-0.00487
56.26314	-0.00649
56.29419	-0.00487
56.34593	-0.00423
56.37697	-0.00246
56.41837	-0.00584
56.44941	-0.00632
56.49080	-0.00439
56.52185	-0.00520
56.55289	-0.00745
56.58394	-0.00794
56.61498	-0.00423
56.65637	-0.00616
56.70811	-0.00471
56.75986	-0.00729
56.82194	-0.00761
56.87369	-0.00922
56.93577	-0.00600
57.00821	-0.00745
57.07030	-0.00423
57.14274	-0.00197
57.21518	-0.00391
57.29796	-0.00439
57.38075	-0.00745
57.46353	-0.00359
57.55667	-0.00697
57.66015	-0.00858
57.75328	-0.00552
57.83607	-0.00858
57.91885	-0.00197
57.98094	-0.00810
58.03268	-0.00520
58.09477	-0.00407
58.14651	-0.00407
58.19825	-0.01035
58.22930	-0.00391
58.28104	-0.00342
58.33278	-0.00826
58.37417	-0.00471
58.41557	-0.00471
58.45696	-0.00568
58.47766	-0.00455
58.51905	-0.00600
58.56044	-0.01067
58.60183	-0.00133
58.64323	-0.00584
58.68462	-0.00471
58.73636	-0.00520
58.79845	-0.00294
58.85019	-0.00020
58.90193	-0.00310
58.94332	-0.00391
58.98472	-0.00439
59.02611	-0.00117
59.06750	-0.00455
59.11924	-0.00391
59.16064	-0.00439
59.20203	-0.00487
59.23307	-0.00584
59.26412	-0.00310
59.28482	-0.00632
59.31586	-0.00278
59.34690	-0.00729
59.37795	-0.00713
59.39865	-0.00504
59.42969	-0.00359
59.45039	-0.00165
59.48143	-0.00326
59.51248	-0.00777
59.54352	-0.00036
59.59526	-0.00101
59.63665	-0.00004
59.67805	-0.00665
59.70909	-0.00391
59.74014	-0.00214
59.78153	-0.00842
59.81257	-0.00455
59.84362	-0.00649
59.87466	-0.00471
59.90571	-0.00310
59.94710	-0.00471
59.99884	-0.00294
60.04023	-0.00391
60.09197	-0.00133
60.14372	-0.00536
60.18511	-0.00359
60.23685	-0.00342
60.27824	-0.00842
60.34033	0.00044
60.40242	-0.00423
60.44381	-0.00342
60.50590	0.00012
60.55764	-0.00697
60.60938	-0.00294
60.66113	-0.00262
60.72321	-0.00246
60.77496	-0.00794
60.81635	0.00012
60.84739	-0.00471
60.87844	-0.00101
60.90948	-0.00439
60.94053	-0.00294
60.98192	-0.00439
61.02331	0.00221
61.04401	-0.00294
61.07505	0.00286
61.10610	-0.00423
61.14749	-0.00455
61.18888	-0.00294
61.24062	-0.00165
61.29237	-0.00471
61.33376	-0.00487
61.37515	-0.00294
61.40620	-0.00197
61.43724	-0.00036
61.46828	-0.00326
61.50968	-0.00294
61.55107	-0.00052
61.60281	-0.00149
61.64420	-0.00020
61.68560	-0.00181
61.71664	-0.00149
61.74769	-0.00487
61.76838	-0.00375
61.79943	-0.00632
61.82012	-0.00197
61.84082	-0.00197
61.86152	-0.00407
61.87186	0.00189
61.89256	-0.00181
61.91326	0.00093
61.93395	-0.00439
61.94430	-0.00052
61.96500	0.00624
61.98569	-0.00004
62.00639	0.00157
62.03744	-0.00391
62.06848	-0.00230
62.09952	-0.00197
62.15127	-0.00278
62.18231	-0.00101
62.22370	-0.00342
62.27544	-0.00214
62.32719	-0.00036
62.37893	0.00076
62.42032	-0.00052
62.46171	-0.00181
62.50310	-0.00423
62.54450	0.00044
62.58589	-0.00052
62.62728	-0.00616
62.64798	-0.00069
62.67902	-0.00197
62.68937	-0.00342
62.71007	-0.00246
62.73076	-0.00568
62.75146	-0.00520
62.77216	-0.00407
62.80320	-0.00681
62.82390	-0.00310
62.86529	0.00125
62.89634	-0.00101
62.93773	-0.00310
62.97912	-0.00052
63.02051	-0.00214
63.07226	-0.00568
63.12400	0.00028
63.19643	-0.00520
63.25852	-0.00149
63.32061	-0.00246
63.37235	-0.00052
63.42409	-0.00520
63.48618	-0.00117
63.53792	-0.00890
63.58967	-0.00471
63.63106	-0.00407
63.68280	-0.00326
63.72419	-0.00342
63.75524	-0.00214
63.79663	-0.00004
63.82767	-0.00069
63.86907	0.00060
63.90011	0.00173
63.92081	-0.00359
63.95185	-0.00165
63.98290	0.00028
64.02429	-0.00294
64.06568	-0.00020
64.10707	-0.00649
64.15882	-0.00036
64.20021	-0.00246
64.24160	-0.00568
64.29334	-0.00181
64.34508	0.00044
64.39682	-0.00230
64.44857	-0.00117
64.50031	-0.00246
64.55205	-0.00359
64.60379	0.00109
64.65553	-0.00359
64.68657	-0.00197
64.71762	-0.00052
64.75901	-0.00004
64.79006	-0.00439
64.83145	-0.00052
64.88319	-0.00471
64.92458	0.00141
64.97632	-0.00117
65.01772	-0.00214
65.06946	-0.00085
65.12120	0.00012
65.18329	-0.00165
65.24538	0.00157
65.30747	-0.00278
65.37990	-0.00246
65.45234	0.00125
65.52478	-0.00069
65.58687	-0.00101
65.63861	-0.00197
65.70070	0.00495
65.75244	-0.00101
65.79383	-0.00085
65.83522	0.00238
65.87662	0.00044
65.92836	0.00125
65.98010	-0.00004
66.03184	-0.00052
66.08358	0.00238
66.13532	-0.00214
66.20776	-0.00004
66.25950	0.00109
66.32159	0.00350
66.38368	0.00028
66.42507	0.00399
66.46646	0.00044
66.51820	0.00221
66.55960	0.00012
66.60099	-0.00133
66.65273	-0.00262
66.70447	0.00173
66.74586	0.00415
66.79761	-0.00052
66.84935	-0.00085
66.89074	0.00157
66.94248	0.00125
66.97353	0.00205
67.00457	-0.00052
67.03561	0.00189
67.07701	-0.00117
67.10805	-0.00246
67.14944	0.00286
67.19084	0.00012
67.23223	-0.00181
67.27362	0.00189
67.34606	-0.00069
67.42885	0.00302
67.49093	-0.00020
67.54268	0.00254
67.58407	0.00383
67.61511	0.00044
67.64616	0.00157
67.67720	-0.00020
67.70825	0.00302
67.74964	0.00012
67.78068	-0.00165
67.81173	-0.00326
67.85312	0.00511
67.90486	-0.00020
67.95660	0.00334
68.00834	-0.00375
68.04974	0.00447
68.08078	0.00109
68.10148	0.00028
68.13252	-0.00036
68.16357	0.00125
68.20496	0.00173
68.24635	0.00399
68.29809	0.00012
68.33949	0.00463
68.39123	0.00093
68.43262	0.00479
68.48436	0.00189
68.53610	0.00640
68.58784	0.00318
68.64993	0.00221
68.71202	0.00028
68.77411	0.00238
68.83620	0.00044
68.91899	0.00350
68.98108	-0.00004
69.04316	0.00511
69.10525	0.00141
69.15699	0.00221
69.19839	0.00060
69.22943	0.00479
69.26048	-0.00020
69.30187	0.00334
69.33291	0.00318
69.37431	0.00334
69.40535	0.00898
69.43640	0.00318
69.45709	0.00205
69.47779	0.00527
69.49849	0.00721
69.50883	0.00672
69.52953	0.00366
69.55023	0.00189
69.58127	0.00399
69.60197	0.00479
69.63301	0.00286
69.64336	0.00286
69.66406	0.00270
69.67440	0.00060
69.69510	-0.00230
69.70545	0.00479
69.71580	0.00044
69.71580	0.00672
69.72615	0.00608
69.73649	0.00238
69.74684	0.00447
69.75719	0.00527
69.76754	0.00656
69.78823	0.00624
69.81928	0.00447
69.87102	-0.00069
69.91241	0.00560
69.96415	0.00479
70.01589	0.00383
70.06764	0.00608
70.10903	0.00479
70.16077	0.00447
70.18147	0.00028
70.21251	0.00495
70.23321	0.00350
70.25390	0.00238
70.28495	0.00463
70.30564	0.00366
70.32634	0.00173
70.34704	0.00592
70.37808	0.00286
70.40913	0.00109
70.44017	0.00560
70.47122	0.00672
70.50226	0.00672
70.51261	0.00270
70.52296	0.00527
70.54365	0.00608
70.56435	0.00769
70.58505	0.00995
70.60574	0.00834
70.63679	0.00238
70.66783	0.00721
70.69888	0.00479
70.75062	0.00866
70.79201	0.00689
70.84375	0.00479
70.88514	0.01107
70.92654	0.00447
70.96793	0.00705
70.99897	0.00705
71.04037	0.00640
71.07141	0.00576
71.11280	0.00399
71.14385	0.00415
71.17489	0.01011
71.20594	0.00286
71.24733	0.00995
71.29907	0.00834
71.35081	0.00576
71.40255	0.00769
71.46464	0.01156
71.52673	0.00946
71.57847	0.01301
71.63021	0.01059
71.67161	0.00930
71.70265	0.01204
71.73370	0.01075
71.75439	0.01252
71.78544	0.01107
71.81648	0.01526
71.84753	0.00979
71.88892	0.01317
71.93031	0.01559
71.97170	0.01220
72.01310	0.01301
72.06484	0.01349
72.12693	0.01623
72.17867	0.01687
72.24076	0.01655
72.29250	0.01623
72.34424	0.01720
72.39598	0.01865
72.45807	0.02074
72.52016	0.01575
72.58225	0.02364
72.63399	0.02251
72.69608	0.02122
72.73747	0.02171
72.77886	0.02090
72.82026	0.01929
72.85130	0.02138
72.90304	0.02251
72.94443	0.01897
72.98583	0.01736
73.01687	0.01816
73.04792	0.01897
73.08931	0.01494
73.13070	0.02122
73.18244	0.01993
73.23418	0.01430
73.27558	0.01542
73.31697	0.01236
73.35836	0.01591
73.41010	0.01091
73.47219	0.01107
73.51359	0.01414
73.55498	0.01510
73.59637	0.01236
73.62742	0.01091
73.65846	0.01430
73.68950	0.01397
73.71020	0.01011
73.74125	0.01285
73.77229	0.01059
73.80333	0.01462
73.82403	0.01285
73.85508	0.01542
73.88612	0.01188
73.92751	0.01107
73.96891	0.01478
73.99995	0.01220
74.04134	0.00995
74.08274	0.01397
74.12413	0.01091
74.16552	0.01397
74.20691	0.01269
74.25866	0.01365
74.32074	0.01510
74.37249	0.01011
74.43457	0.01478
74.48632	0.00914
74.52771	0.01559
74.56910	0.01397
74.60015	0.01188
74.64154	0.00898
74.68293	0.01542
74.74502	0.01349
74.79676	0.01220
74.84850	0.01059
74.91059	0.01285
74.97268	0.01172
75.02442	0.01236
75.07616	0.01204
75.11756	0.01752
75.15895	0.01204
75.22104	0.00817
75.27278	0.01107
75.34522	0.01156
75.40730	0.01156
75.49009	0.01204
75.56253	0.01414
75.63497	0.00801
75.70740	0.00850
75.77984	0.01285
75.84193	0.01333
75.90402	0.01317
75.96611	0.01059
76.01785	0.01365
76.06959	0.01011
76.12133	0.01478
76.17307	0.01027
76.22481	0.01285
76.27655	0.01414
76.30760	0.01059
76.35934	0.01559
76.41108	0.01124
76.47317	0.01140
76.51456	0.01526
76.55595	0.01075
76.58700	0.01220
76.60770	0.01397
76.62839	0.01269
76.65944	0.01559
76.70083	0.01075
76.74222	0.01220
76.79396	0.01414
76.83536	0.01365
76.87675	0.01252
76.92849	0.01414
76.95953	0.01381
77.00093	0.01575
77.05267	0.01430
77.10441	0.01075
77.16650	0.01317
77.21824	0.01397
77.25963	0.01414
77.29068	0.01591
77.32172	0.01784
77.34242	0.01269
77.35277	0.01510
77.37346	0.01365
77.38381	0.01446
77.40451	0.01865
77.42520	0.01252
77.44590	0.00946
77.47694	0.01575
77.50799	0.01301
77.54938	0.01430
77.59077	0.00962
77.64252	0.01140
77.70460	0.01188
77.76669	0.01091
77.82878	0.01542
77.90122	0.01124
77.96331	0.01816
78.02540	0.01220
78.08749	0.01252
78.14958	0.01124
78.21167	0.01236
78.26341	0.01736
78.31515	0.01510
78.36689	0.01736
78.41863	0.01349
78.46002	0.01607
78.51176	0.01881
78.54281	0.01462
78.57385	0.01559
78.61525	0.01430
78.65664	0.01736
78.69803	0.01397
78.76012	0.01752
78.82221	0.01397
78.90500	0.01929
78.97743	0.01317
79.03952	0.01285
79.09126	0.01220
79.13266	0.01478
79.17405	0.01478
79.20509	0.01607
79.22579	0.02042
79.24649	0.01333
79.26718	0.01381
79.29823	0.01703
79.32927	0.01607
79.37066	0.01301
79.40171	0.01607
79.44310	0.01655
79.48449	0.01542
79.51554	0.01591
79.55693	0.01365
79.58798	0.01252
79.61902	0.01993
79.65007	0.01575
79.68111	0.01397
79.71215	0.01913
79.74320	0.01720
79.76390	0.01623
79.79494	0.01430
79.83633	0.01736
79.86738	0.01526
79.89842	0.01365
79.92947	0.01397
79.96051	0.01526
80.00190	0.01639